Folder: Practices-1st-course/raman_norm/csv

Note: raman_norm/csv/raman_Ag_2_dye_2_1week.txt
1742.13	14074.8
1741.12	14287.1
1740.11	14227.7
1739.09	14412.6
1738.08	14335.9
1737.07	14249.3
1736.05	14402.1
1735.04	14532.6
1734.03	14418.9
1733.01	14228.9
1732	14443.2
1730.98	14238.4
1729.97	14105.1
1728.95	14129.6
1727.94	14296.9
1726.92	14363.2
1725.91	14414.7
1724.89	14188
1723.88	14067.2
1722.86	14190.1
1721.85	14192.4
1720.83	14150.4
1719.81	14194.5
1718.8	14437.8
1717.78	14368.7
1716.76	14329.1
1715.75	14196.2
1714.73	14353.3
1713.71	14635.6
1712.69	14532.2
1711.67	14563.8
1710.66	14286.1
1709.64	14266.3
1708.62	14293.1
1707.6	14251.1
1706.58	14128.3
1705.56	14221.3
1704.54	14248.1
1703.52	14333.7
1702.5	14007.4
1701.49	14421.5
1700.47	14293.8
1699.44	14247.1
1698.42	14337.5
1697.4	14334.8
1696.38	14067.6
1695.36	14248.7
1694.34	14441.9
1693.32	14463.6
1692.3	14345.9
1691.28	14402
1690.25	14338.1
1689.23	14125.1
1688.21	14310.8
1687.19	14276.3
1686.16	14520.5
1685.14	14508.1
1684.12	14263.4
1683.1	14378
1682.07	14499.9
1681.05	14443.5
1680.02	14360.2
1679	14674.9
1677.98	14384.2
1676.95	14513.2
1675.93	14437.3
1674.9	14498.1
1673.88	14410
1672.85	14382.9
1671.83	14450.9
1670.8	14448.2
1669.78	14555.2
1668.75	14335.6
1667.72	14498.6
1666.7	14420.4
1665.67	14515.1
1664.64	14658.5
1663.62	14758
1662.59	14618.9
1661.56	14582.1
1660.54	14586.7
1659.51	14571.8
1658.48	14651.8
1657.45	14563.9
1656.42	14799.5
1655.4	14711.6
1654.37	14840.1
1653.34	14907.8
1652.31	14769
1651.28	14870.6
1650.25	14923.7
1649.22	14872.4
1648.19	14995.8
1647.16	14932.3
1646.13	15075.1
1645.1	15239.7
1644.07	15045.2
1643.04	15103.1
1642.01	15209.4
1640.98	15405.3
1639.95	15472.7
1638.91	15675.8
1637.88	15663.2
1636.85	15948.6
1635.82	16027.9
1634.79	16378.5
1633.75	16816.1
1632.72	17021.2
1631.69	17538.4
1630.65	17919.9
1629.62	18601.2
1628.59	18767.1
1627.55	19351.3
1626.52	19751.5
1625.49	19800.9
1624.45	20089.7
1623.42	20001.4
1622.38	20157.1
1621.35	20201.6
1620.31	20096.4
1619.28	19872.8
1618.24	19787
1617.21	19414
1616.17	19613.1
1615.14	19392.2
1614.1	19159.3
1613.06	19232.9
1612.03	19306.5
1610.99	19517.5
1609.95	19615.1
1608.92	19375.2
1607.88	19708.9
1606.84	19488.4
1605.8	19610
1604.76	18907.8
1603.73	18369.6
1602.69	17843.7
1601.65	17575.5
1600.61	17382.1
1599.57	17328.3
1598.53	17139.8
1597.49	16884
1596.45	16753.3
1595.41	16899.3
1594.37	16696.5
1593.33	16544.4
1592.29	16459.6
1591.25	16454.1
1590.21	16225.1
1589.17	16224.5
1588.13	16406.3
1587.09	16194.4
1586.05	15977.7
1585.01	15986.7
1583.97	15993.3
1582.92	15903.9
1581.88	15869.7
1580.84	15722.8
1579.8	15552
1578.75	15599.4
1577.71	15596.5
1576.67	15555.2
1575.62	15427.7
1574.58	15721.8
1573.54	15754.8
1572.49	15668
1571.45	15631.5
1570.4	15810.5
1569.36	15783.6
1568.31	15955.3
1567.27	15756.1
1566.22	15829.7
1565.18	15609
1564.13	15730.4
1563.09	15758.5
1562.04	15980.2
1560.99	16216.2
1559.95	16139.1
1558.9	16503.9
1557.86	16180.7
1556.81	16239.8
1555.76	16193.7
1554.71	15968.7
1553.67	15987.1
1552.62	15974.6
1551.57	15962
1550.52	15875.5
1549.47	15798.6
1548.43	15871.9
1547.38	15768.8
1546.33	15

Note: README.md
# Practices 

## interest_rate.py
Calculate the deposit amount taking into account the interest rate in a few years. Apply f-strings to show the result.

## wien_law.py 
Using the Wien's law  calculate wavelength of a peak position of radiation at different temperature of a body. Check input values.

## plank_law.py
Plot spectra of radiation of different objects using Planck's law of blackbody radiation

## polyfit_approximation.py
Make a random data and apply polynomial approximation with different degree.

## read_all_files.py
A way to read all files from the folder

## timer_dispersion/
Calculate average and dispersion for data from a timer in file.

## read_list/
Make a "horizontal" 2D array with 2 rows (then "vertical" witn 2 columns), write it to a file, read and print.

## hash/
Make a function to calculate hash of a string using bitwise  XOR, then using Pearson hashing (using a key table), then make a hash for every string in a file.

## raman_norm/
Plot Raman specra of reduced graphene oxide and another samples. Normalize data.

## photoconductivity_gas_sensor/
Load test data (signal I(t) from gas sensor, obtained in the same conditions) from 5 files, average them and plot averaged data.

## carbon_dots_spectra/
Load fluorescence spectra of carbon dots in different solvents (Acetone, Chloroform, Ethanol, Toluene, water). Find a wavelength of maximum absorption (the wavelength more than 300 nm) for each sample. Plot wavelength of the maximum absorption as a function of solvent polarity. Approximate the function.

## decay_times/
Fit the fluorescence decay of PbS quantum dots with exponential function using numpy only. Find the decay constant.

## CIE1931_color/
Find color coordinates for spectra of Carbon dots LED and place then on the chromaticity diagram CIE1931

## perceptron/
Single Layer Perceptron and recognition of 1D arrays

## recognition_PbS/
Recognition of two types of spectra

## repeated_execution/
Repeated execution and reading data from a power meter PM100D

## smoothing.py
Generate randon 1D data and smooth them by averaging

File: raman_NP_ITO_10s_5a_P10_488nm.txt
3004.05	2799.45
2997.35	2867.82
2990.64	3075.56
2983.92	3214.47
2977.2	3292.14
2970.48	3507.91
2963.75	3531.73
2957.01	3562.92
2950.27	3641.49
2943.52	3632.52
2936.77	3636.87
2930.01	3528.8
2923.24	3412.04
2916.47	3273.33
2909.69	3201.22
2902.91	3104.17
2896.12	2974.88
2889.33	2944.39
2882.53	2935.99
2875.72	2807.15
2868.91	2722.55
2862.1	2567.71
2855.27	2596.27
2848.44	2601.35
2841.61	2590.32
2834.77	2545.7
2827.92	2457.35
2821.07	2481.48
2814.21	2456
2807.35	2563.08
2800.48	2445.9
2793.6	2499
2786.72	2559.27
2779.83	2591.85
2772.93	2660.63
2766.03	2635.11
2759.13	2728.31
2752.21	2775.07
2745.29	2972.01
2738.37	2959.28
2731.44	3077.81
2724.5	3096.69
2717.56	3160.17
2710.61	3177.49
2703.65	3199.1
2696.69	3201.99
2689.72	3179.05
2682.75	3065.84
2675.77	2977.18
2668.78	2799.96
2661.79	2750.28
2654.79	2704.96
2647.78	2556.99
2640.77	2453.47
2633.75	2384.32
2626.73	2285.4
2619.69	2185.24
2612.66	2088.09
2605.61	1996.8
2598.56	1992.15
2591.51	1974.77
2584.44	1905.04
2577.37	1850.99
2570.3	1792.8
2563.21	1750.24
2556.13	1706.34
2549.03	1721.69
2541.93	1663.82
2534.82	1641.2
2527.71	1608.79
2520.58	1580.65
2513.46	1548.35
2506.32	1481.08
2499.18	1525.92
2492.03	1530.12
2484.88	1416.93
2477.72	1454.72
2470.55	1425.49
2463.38	1411.64
2456.2	1354.65
2449.01	1356.19
2441.82	1328.53
2434.62	1306.49
2427.41	1295.57
2420.2	1266.66
2412.98	1251.65
2405.75	1231.13
2398.52	1209.26
2391.28	1224.71
2384.03	1202.89
2376.78	1216.94
2369.52	1166.24
2362.25	1184.42
2354.98	1197.07
2347.7	1154.77
2340.41	1190.73
2333.12	1155.37
2325.82	1136.49
2318.51	1195.63
2311.2	1104.32
2303.87	1092.37
2296.55	1135.01
2289.21	1128.5
2281.87	1157.41
2274.52	1130.48
2267.17	1095.45
2259.81	1101.22
2252.44	1115.12
2245.06	1111.37
2237.68	1075.13
2230.29	1105.24
2222.89	1131.24
2215.49	1099.13
2208.08	1058.98
2200.66	1122.68
2193.24	1057
2185.81	1081.57
2178.37	1134.32
2170.92	1082.24
2163.47	1073.18
2156.01	1072.17
2148.55	1072.51
2141.07	1098.26
2133.59	1082.53
2126.11	1076.17
2118.61	1079.16
2111.11	1100.81
2103.6	1059.83
2096.09	1108.05
2088.57	1096.38
2081.04	1094.03
2073.5	1103.61
2065.96	1081.37
2058.41	1063.14
2050.85	1074.04
2043.29	1074.36
2035.71	1130.11
2028.14	1093.44
2020.55	1087.14
2012.96	1122.97
2005.36	1094.29
1997.75	1106.4
1990.13	1138.18
1982.51	1091.2
1974.88	1119
1967.25	1127.1
1959.6	1099.88
1951.95	1092.31
1944.29	1084.75
1936.63	1139.8
1928.96	1111.36
1921.28	1081.67
1913.59	1124.86
1905.89	1106.9
1898.19	1107.15
1890.48	1109.99
1882.77	1123.18
1875.04	1150.59
1867.31	1145.62
1859.57	1083.81
1851.83	1162.8
1844.07	1099.8
1836.31	1100.04
1828.55	1140.17
1820.77	1184.08
1812.99	1202.22
1805.2	1202.35
1797.4	1149.92
1789.59	1155.23
1781.78	1184.83
1773.96	1160.69
1766.13	1200.44
1758.3	1236.29
1750.46	1255.49
1742.61	1287.4
1734.75	1320.51
1726.88	1283.65
1719.01	1328.12
1711.13	1319.23
1703.24	1357.25
1695.35	1355.94
1687.44	1472.26
1679.53	1503.69
1671.61	1681.49
1663.69	1735.35
1655.75	1991.95
1647.81	2589.17
1639.86	4249.05
1631.9	7722.26
1623.94	10503.5
1615.97	10772.8
1607.99	11057.9
1600	11959.4
1592	12615.3
1584	11305.3
1575.99	9184.35
1567.97	7298.15
1559.94	5975.99
1551.9	5192.6
1543.86	4674.21
1535.81	4350.51
1527.75	4039.85
1519.68	3951.6
1511.61	3783.05
1503.52	3656.87
1495.43	3682.9
1487.33	3557.05
1479.23	3589.27
1471.11	3575.85
1462.99	3521.83
1454.86	3684.27
1446.72	3668.31
1438.57	4070.72
1430.41	4342.41
1422.25	4702.92
1414.08	5446.77
1405.9	6274.64
1397.71	7282.71
1389.51	8754.57
1381.3	10401.3
1373.09	12442.6
1364.87	14070
1356.64	14580.4
1348.4	13787.8
1340.15	12015
1331.9	9905.63
1323.63	8079.91
1315.36	6692.92
1307.08	5530.86
1298.79	4571.34
1290.49	4078.76
1282.18	3406.68
1273.87	3050.93
1265.54	2721.13
1257.21	2457.98
1248.87	2195.38
1240.52	2074.57
1232.16	1908.57
1223.79	1772.77
1215.41	1594.29
1207.03	1517.51
1198.63	1407.55
1190.23	1345.39
1181.82	1254.84
1173.4	1172.79
1164.97	1153.75
1156.53	1088.55
1148.08	1050.71
1139.62	1012.94
1131.16	944.549
1122.68	951.785
1114.2	917.768
1105.7	868.522
1103.58	763.574

File: raman_QA_crystals_10x3_100pw.txt
1924.42	1114.15
1917.69	17.8385
1910.96	5492.45
1904.23	5904.67
1897.48	5843.19
1890.73	5916.61
1883.98	5830.05
1877.22	5672.66
1870.45	5833.19
1863.68	5735.1
1856.9	5738.94
1850.12	5732.45
1843.33	5734.81
1836.54	5715.08
1829.73	5657.17
1822.93	5586.13
1816.11	5588.58
1809.29	5649.65
1802.47	5640.3
1795.64	5582.67
1788.8	5602.63
1781.96	5565.57
1775.11	5543.17
1768.25	5598.08
1761.39	5409.58
1754.52	5426.66
1747.65	5382.61
1740.77	5393.86
1733.88	5455.89
1726.99	5319.08
1720.09	5350.61
1713.19	5453.04
1706.28	5435.2
1699.36	5488.22
1692.44	5710.09
1685.51	6347.11
1678.58	6255
1671.64	5592.69
1664.69	5331.58
1657.74	5313.92
1650.78	5340.81
1643.81	5261.44
1636.84	5246.73
1629.86	5147.51
1622.88	5125.76
1615.89	5105.47
1608.89	4988.05
1601.89	5109.24
1594.88	5009.12
1587.87	5037.44
1580.85	4947.52
1573.82	4984.36
1566.78	4989.86
1559.74	4935.7
1552.7	4898.66
1545.64	4967.99
1538.59	4858.75
1531.52	4854.4
1524.45	4751.1
1517.37	4892.31
1510.29	4814.55
1503.19	4818.69
1496.1	4700.28
1488.99	4705.91
1481.88	4722.77
1474.77	4749.43
1467.65	4769.01
1460.52	5174.17
1453.38	4943.95
1446.24	4890.51
1439.09	4852.54
1431.93	5272.9
1424.77	4706.99
1417.61	4602.32
1410.43	4816.93
1403.25	4994.94
1396.06	4756.76
1388.87	4706.59
1381.67	4635.69
1374.46	4684.2
1367.25	4757.56
1360.03	4933.24
1352.8	4829.16
1345.57	4488.94
1338.33	4337.11
1331.08	4466.98
1323.83	4315.44
1316.57	4293.61
1309.3	4600.63
1302.03	4913.95
1294.75	4492
1287.47	4659.4
1280.17	4500.25
1272.87	4608.44
1265.57	4957.24
1258.26	4483.82
1250.94	4293.97
1243.61	4317.33
1236.28	4607.84
1228.94	4412.93
1221.59	4442.9
1214.24	4218.58
1206.88	4100.61
1199.51	4100.92
1192.14	4029.36
1184.76	4101.5
1177.37	4023.3
1169.98	3920.89
1162.58	3955.1
1155.17	4141.73
1147.76	4495.21
1140.34	5359.9
1132.91	5038.69
1125.47	4104.94
1118.03	3888.9
1110.58	3869.19
1103.13	4206.17
1095.66	3955.79
1088.19	3893.23
1080.72	3792.01
1073.24	3946.12
1065.75	4336.17
1058.25	4469.47
1050.74	3856.53
1043.23	3647.98
1035.71	3844.02
1028.19	3695.64
1020.66	3595.31
1013.12	3562.78
1005.57	3571.38
998.019	3556.13
990.458	3618.91
982.891	3928.59
975.316	3625.33
967.734	3612.7
960.146	3759.48
952.55	3455.9
944.947	3440.82
937.336	3469.11
929.719	3615.45
922.094	3442.92
914.463	3269.39
906.824	3246.68
899.178	3222.7
891.524	3244.47
883.864	3481.51
876.196	3200.54
868.521	3210.53
860.838	3186.68
853.149	3175.86
845.452	3196.22
837.747	4206.55
830.036	3361.27
822.317	3266.13
814.59	4849.25
806.857	3196.58
799.116	3008.87
791.367	3020.19
783.612	3004.43
775.848	2889.53
768.078	2935.66
760.3	3256.72
752.514	3823.7
744.721	3997.05
736.921	3006.45
729.113	2828.17
721.298	2781.97
713.475	2793.35
705.644	2670.67
697.806	2739.52
689.961	2661.71
682.108	2671.88
674.247	2777.4
666.379	3486.18
658.503	3170.58
650.62	2869.53
642.729	2676.74
634.83	2674.15
626.924	2607.08
619.01	2663.92
611.088	2752.19
603.158	2900.8
595.221	2701.51
587.276	2605.77
579.324	2705.05
571.364	2743.86
563.395	2760
555.42	2593.12
547.436	2477.9
539.444	2625.59
531.445	2746.73
523.438	2871.38
515.423	2400.87
507.4	2312.54
499.369	2282.89
491.331	2290.59
483.284	2856.08
475.23	2338.22
467.167	2143.73
459.097	2217.18
451.019	2400.61
442.933	2044.68
434.838	2021.67
426.736	1978.95
418.626	2011.5
410.507	1970.11
402.381	2388.85
394.246	1953.91
386.104	2034.22
377.953	2202.68
369.794	2054.68
361.627	2318.24
353.452	1801.14
345.269	1729.72
337.078	1691.38
328.878	1864.02
320.67	1646.59
312.454	1640.07
304.23	1758.76
295.997	1631.93
287.756	1741.89
279.507	1815.26
271.25	1463.58
262.984	1598.76
254.71	1504.13
246.428	1436.23
238.137	1440.8
229.837	1355.03
221.53	1316.36
213.214	1268.15
204.889	1379.74
196.556	1555.88
188.215	1628.6
179.865	1211.53
171.507	1143.32
163.14	1112.29
154.764	1124.28
146.38	1166.05
137.987	1273.25
129.586	1269.57
121.176	1138.7
112.758	1289.52
104.331	2801.78
95.8951	2141.24
87.4506	1667.91
78.9974	1322.07
70.5356	936.781
62.0649	49.5639
53.5856	11.7887
45.0974	7.06593
36.6005	14.1172
28.0947	16.453
19.5801	31.698
11.0567	63.3301
2.52441	5141.98
-6.01678	162.677
-12.4285	36.2522