Folder: Practices-1st-course/carbon_dots_spectra/csv

Note: README.md
# Practices 

## interest_rate.py
Calculate the deposit amount taking into account the interest rate in a few years. Apply f-strings to show the result.

## wien_law.py 
Using the Wien's law  calculate wavelength of a peak position of radiation at different temperature of a body. Check input values.

## plank_law.py
Plot spectra of radiation of different objects using Planck's law of blackbody radiation

## polyfit_approximation.py
Make a random data and apply polynomial approximation with different degree.

## read_all_files.py
A way to read all files from the folder

## timer_dispersion/
Calculate average and dispersion for data from a timer in file.

## read_list/
Make a "horizontal" 2D array with 2 rows (then "vertical" witn 2 columns), write it to a file, read and print.

## hash/
Make a function to calculate hash of a string using bitwise  XOR, then using Pearson hashing (using a key table), then make a hash for every string in a file.

## raman_norm/
Plot Raman specra of reduced graphene oxide and another samples. Normalize data.

## photoconductivity_gas_sensor/
Load test data (signal I(t) from gas sensor, obtained in the same conditions) from 5 files, average them and plot averaged data.

## carbon_dots_spectra/
Load fluorescence spectra of carbon dots in different solvents (Acetone, Chloroform, Ethanol, Toluene, water). Find a wavelength of maximum absorption (the wavelength more than 300 nm) for each sample. Plot wavelength of the maximum absorption as a function of solvent polarity. Approximate the function.

## decay_times/
Fit the fluorescence decay of PbS quantum dots with exponential function using numpy only. Find the decay constant.

## CIE1931_color/
Find color coordinates for spectra of Carbon dots LED and place then on the chromaticity diagram CIE1931

## perceptron/
Single Layer Perceptron and recognition of 1D arrays

## recognition_PbS/
Recognition of two types of spectra

## repeated_execution/
Repeated execution and reading data from a power meter PM100D

## smoothing.py
Generate randon 1D data and smooth them by averaging

File: 1_3k_water.txt
'1_3k_water.spc - RawData'
'Wavelength nm.'	'Abs.'
200.0	0.1493
203.0	0.1336
206.0	0.1200
209.0	0.1109
212.0	0.1042
215.0	0.0984
218.0	0.0942
221.0	0.0912
224.0	0.0882
227.0	0.0852
230.0	0.0814
233.0	0.0782
236.0	0.0745
239.0	0.0720
242.0	0.0700
245.0	0.0687
248.0	0.0673
251.0	0.0662
254.0	0.0654
257.0	0.0646
260.0	0.0637
263.0	0.0625
266.0	0.0623
269.0	0.0615
272.0	0.0612
275.0	0.0605
278.0	0.0597
281.0	0.0591
284.0	0.0588
287.0	0.0582
290.0	0.0570
293.0	0.0555
296.0	0.0551
299.0	0.0543
302.0	0.0531
305.0	0.0530
308.0	0.0524
311.0	0.0521
314.0	0.0517
317.0	0.0515
320.0	0.0505
323.0	0.0505
326.0	0.0499
329.0	0.0496
332.0	0.0495
335.0	0.0487
338.0	0.0482
341.0	0.0483
344.0	0.0481
347.0	0.0474
350.0	0.0473
353.0	0.0472
356.0	0.0468
359.0	0.0470
362.0	0.0465
365.0	0.0463
368.0	0.0462
371.0	0.0460
374.0	0.0454
377.0	0.0458
380.0	0.0454
383.0	0.0452
386.0	0.0451
389.0	0.0447
392.0	0.0446
395.0	0.0444
398.0	0.0445
401.0	0.0443
404.0	0.0440
407.0	0.0440
410.0	0.0439
413.0	0.0437
416.0	0.0434
419.0	0.0434
422.0	0.0432
425.0	0.0430
428.0	0.0429
431.0	0.0428
434.0	0.0426
437.0	0.0426
440.0	0.0425
443.0	0.0423
446.0	0.0422
449.0	0.0422
452.0	0.0421
455.0	0.0419
458.0	0.0417
461.0	0.0418
464.0	0.0416
467.0	0.0416
470.0	0.0417
473.0	0.0418
476.0	0.0418
479.0	0.0416
482.0	0.0416
485.0	0.0414
488.0	0.0413
491.0	0.0412
494.0	0.0410
497.0	0.0411
500.0	0.0409
503.0	0.0409
506.0	0.0410
509.0	0.0408
512.0	0.0407
515.0	0.0407
518.0	0.0405
521.0	0.0405
524.0	0.0405
527.0	0.0405
530.0	0.0404
533.0	0.0401
536.0	0.0401
539.0	0.0401
542.0	0.0400
545.0	0.0398
548.0	0.0398
551.0	0.0398
554.0	0.0398
557.0	0.0396
560.0	0.0396
563.0	0.0396
566.0	0.0397
569.0	0.0395
572.0	0.0394
575.0	0.0395
578.0	0.0395
581.0	0.0394
584.0	0.0395
587.0	0.0396
590.0	0.0395
593.0	0.0396
596.0	0.0396
599.0	0.0396
602.0	0.0398
605.0	0.0399
608.0	0.0397
611.0	0.0396
614.0	0.0398
617.0	0.0397
620.0	0.0396
623.0	0.0397
626.0	0.0396
629.0	0.0397
632.0	0.0394
635.0	0.0395
638.0	0.0396
641.0	0.0396
644.0	0.0395
647.0	0.0396
650.0	0.0395
653.0	0.0396
656.0	0.0396
659.0	0.0399
662.0	0.0399
665.0	0.0398
668.0	0.0397
671.0	0.0397
674.0	0.0397
677.0	0.0397
680.0	0.0397
683.0	0.0397
686.0	0.0396
689.0	0.0396
692.0	0.0398
695.0	0.0399
698.0	0.0399
701.0	0.0400
704.0	0.0403
707.0	0.0406
710.0	0.0407
713.0	0.0412
716.0	0.0416
719.0	0.0421
722.0	0.0427
725.0	0.0435
728.0	0.0445
731.0	0.0457
734.0	0.0473
737.0	0.0481
740.0	0.0486
743.0	0.0488
746.0	0.0487
749.0	0.0488
752.0	0.0488
755.0	0.0488
758.0	0.0489
761.0	0.0488
764.0	0.0486
767.0	0.0486
770.0	0.0485
773.0	0.0484
776.0	0.0484
779.0	0.0479
782.0	0.0478
785.0	0.0474
788.0	0.0470
791.0	0.0467
794.0	0.0462
797.0	0.0459
800.0	0.0461

File: 1_3k_water_28_cd.txt
'1_3k_water_28_cd.spc - RawData'
'Wavelength nm.'	'Abs.'
200.0	1.1995
203.0	0.9417
206.0	0.7197
209.0	0.5593
212.0	0.4446
215.0	0.3582
218.0	0.2926
221.0	0.2472
224.0	0.2137
227.0	0.1913
230.0	0.1761
233.0	0.1657
236.0	0.1578
239.0	0.1513
242.0	0.1453
245.0	0.1384
248.0	0.1299
251.0	0.1203
254.0	0.1098
257.0	0.1005
260.0	0.0932
263.0	0.0883
266.0	0.0858
269.0	0.0843
272.0	0.0837
275.0	0.0838
278.0	0.0842
281.0	0.0851
284.0	0.0859
287.0	0.0872
290.0	0.0877
293.0	0.0883
296.0	0.0895
299.0	0.0906
302.0	0.0912
305.0	0.0926
308.0	0.0940
311.0	0.0951
314.0	0.0964
317.0	0.0972
320.0	0.0968
323.0	0.0968
326.0	0.0958
329.0	0.0950
332.0	0.0934
335.0	0.0918
338.0	0.0897
341.0	0.0878
344.0	0.0863
347.0	0.0844
350.0	0.0831
353.0	0.0818
356.0	0.0806
359.0	0.0793
362.0	0.0774
365.0	0.0756
368.0	0.0734
371.0	0.0710
374.0	0.0684
377.0	0.0663
380.0	0.0635
383.0	0.0612
386.0	0.0591
389.0	0.0566
392.0	0.0545
395.0	0.0525
398.0	0.0512
401.0	0.0495
404.0	0.0484
407.0	0.0475
410.0	0.0468
413.0	0.0462
416.0	0.0456
419.0	0.0452
422.0	0.0448
425.0	0.0444
428.0	0.0441
431.0	0.0440
434.0	0.0437
437.0	0.0434
440.0	0.0432
443.0	0.0431
446.0	0.0429
449.0	0.0428
452.0	0.0426
455.0	0.0424
458.0	0.0421
461.0	0.0422
464.0	0.0422
467.0	0.0419
470.0	0.0421
473.0	0.0421
476.0	0.0419
479.0	0.0418
482.0	0.0417
485.0	0.0415
488.0	0.0414
491.0	0.0414
494.0	0.0412
497.0	0.0412
500.0	0.0410
503.0	0.0409
506.0	0.0409
509.0	0.0408
512.0	0.0408
515.0	0.0407
518.0	0.0406
521.0	0.0405
524.0	0.0405
527.0	0.0406
530.0	0.0404
533.0	0.0401
536.0	0.0400
539.0	0.0401
542.0	0.0400
545.0	0.0398
548.0	0.0399
551.0	0.0398
554.0	0.0398
557.0	0.0397
560.0	0.0396
563.0	0.0394
566.0	0.0395
569.0	0.0395
572.0	0.0395
575.0	0.0395
578.0	0.0395
581.0	0.0395
584.0	0.0396
587.0	0.0397
590.0	0.0396
593.0	0.0395
596.0	0.0397
599.0	0.0396
602.0	0.0397
605.0	0.0398
608.0	0.0397
611.0	0.0396
614.0	0.0397
617.0	0.0396
620.0	0.0396
623.0	0.0397
626.0	0.0396
629.0	0.0396
632.0	0.0396
635.0	0.0395
638.0	0.0396
641.0	0.0396
644.0	0.0395
647.0	0.0397
650.0	0.0396
653.0	0.0397
656.0	0.0398
659.0	0.0401
662.0	0.0401
665.0	0.0400
668.0	0.0398
671.0	0.0397
674.0	0.0395
677.0	0.0396
680.0	0.0398
683.0	0.0398
686.0	0.0397
689.0	0.0398
692.0	0.0398
695.0	0.0399
698.0	0.0401
701.0	0.0401
704.0	0.0405
707.0	0.0406
710.0	0.0408
713.0	0.0411
716.0	0.0418
719.0	0.0423
722.0	0.0428
725.0	0.0437
728.0	0.0445
731.0	0.0459
734.0	0.0474
737.0	0.0483
740.0	0.0487
743.0	0.0489
746.0	0.0489
749.0	0.0489
752.0	0.0491
755.0	0.0492
758.0	0.0490
761.0	0.0490
764.0	0.0489
767.0	0.0488
770.0	0.0486
773.0	0.0486
776.0	0.0485
779.0	0.0483
782.0	0.0480
785.0	0.0476
788.0	0.0472
791.0	0.0468
794.0	0.0466
797.0	0.0463
800.0	0.0463

File: 2_3k_water.txt
'2_3k_water.spc - RawData'
'Wavelength nm.'	'Abs.'
200.0	0.0860
203.0	0.0778
206.0	0.0714
209.0	0.0672
212.0	0.0644
215.0	0.0615
218.0	0.0591
221.0	0.0574
224.0	0.0558
227.0	0.0545
230.0	0.0531
233.0	0.0523
236.0	0.0509
239.0	0.0501
242.0	0.0496
245.0	0.0486
248.0	0.0480
251.0	0.0475
254.0	0.0472
257.0	0.0465
260.0	0.0463
263.0	0.0457
266.0	0.0456
269.0	0.0452
272.0	0.0451
275.0	0.0449
278.0	0.0448
281.0	0.0445
284.0	0.0440
287.0	0.0438
290.0	0.0436
293.0	0.0432
296.0	0.0430
299.0	0.0428
302.0	0.0419
305.0	0.0419
308.0	0.0417
311.0	0.0412
314.0	0.0415
317.0	0.0414
320.0	0.0407
323.0	0.0410
326.0	0.0406
329.0	0.0405
332.0	0.0402
335.0	0.0399
338.0	0.0399
341.0	0.0397
344.0	0.0397
347.0	0.0395
350.0	0.0393
353.0	0.0394
356.0	0.0393
359.0	0.0394
362.0	0.0392
365.0	0.0390
368.0	0.0389
371.0	0.0388
374.0	0.0385
377.0	0.0389
380.0	0.0388
383.0	0.0385
386.0	0.0388
389.0	0.0384
392.0	0.0384
395.0	0.0383
398.0	0.0384
401.0	0.0383
404.0	0.0383
407.0	0.0383
410.0	0.0383
413.0	0.0381
416.0	0.0379
419.0	0.0379
422.0	0.0379
425.0	0.0377
428.0	0.0377
431.0	0.0379
434.0	0.0378
437.0	0.0377
440.0	0.0375
443.0	0.0377
446.0	0.0376
449.0	0.0376
452.0	0.0376
455.0	0.0374
458.0	0.0374
461.0	0.0376
464.0	0.0376
467.0	0.0376
470.0	0.0376
473.0	0.0377
476.0	0.0377
479.0	0.0377
482.0	0.0378
485.0	0.0375
488.0	0.0374
491.0	0.0375
494.0	0.0374
497.0	0.0375
500.0	0.0374
503.0	0.0374
506.0	0.0375
509.0	0.0374
512.0	0.0374
515.0	0.0375
518.0	0.0374
521.0	0.0373
524.0	0.0375
527.0	0.0375
530.0	0.0374
533.0	0.0373
536.0	0.0371
539.0	0.0372
542.0	0.0373
545.0	0.0371
548.0	0.0371
551.0	0.0371
554.0	0.0372
557.0	0.0371
560.0	0.0372
563.0	0.0371
566.0	0.0372
569.0	0.0372
572.0	0.0372
575.0	0.0373
578.0	0.0373
581.0	0.0372
584.0	0.0373
587.0	0.0373
590.0	0.0373
593.0	0.0375
596.0	0.0375
599.0	0.0377
602.0	0.0380
605.0	0.0380
608.0	0.0379
611.0	0.0379
614.0	0.0381
617.0	0.0380
620.0	0.0379
623.0	0.0381
626.0	0.0380
629.0	0.0381
632.0	0.0380
635.0	0.0380
638.0	0.0381
641.0	0.0380
644.0	0.0380
647.0	0.0382
650.0	0.0381
653.0	0.0382
656.0	0.0382
659.0	0.0385
662.0	0.0386
665.0	0.0388
668.0	0.0387
671.0	0.0386
674.0	0.0386
677.0	0.0386
680.0	0.0385
683.0	0.0385
686.0	0.0386
689.0	0.0388
692.0	0.0388
695.0	0.0389
698.0	0.0391
701.0	0.0391
704.0	0.0395
707.0	0.0397
710.0	0.0399
713.0	0.0404
716.0	0.0408
719.0	0.0414
722.0	0.0422
725.0	0.0430
728.0	0.0438
731.0	0.0452
734.0	0.0466
737.0	0.0478
740.0	0.0482
743.0	0.0485
746.0	0.0484
749.0	0.0484
752.0	0.0485
755.0	0.0486
758.0	0.0485
761.0	0.0485
764.0	0.0483
767.0	0.0483
770.0	0.0482
773.0	0.0480
776.0	0.0480
779.0	0.0478
782.0	0.0476
785.0	0.0473
788.0	0.0468
791.0	0.0466
794.0	0.0463
797.0	0.0461
800.0	0.0459

File: 2_3k_water_5_cd.txt
'2_3k_water_5_cd.spc - RawData'
'Wavelength nm.'	'Abs.'
200.0	0.3583
203.0	0.3189
206.0	0.2772
209.0	0.2421
212.0	0.2132
215.0	0.1901
218.0	0.1715
221.0	0.1584
224.0	0.1474
227.0	0.1399
230.0	0.1337
233.0	0.1295
236.0	0.1257
239.0	0.1222
242.0	0.1188
245.0	0.1155
248.0	0.1115
251.0	0.1069
254.0	0.1013
257.0	0.0949
260.0	0.0890
263.0	0.0835
266.0	0.0795
269.0	0.0764
272.0	0.0742
275.0	0.0723
278.0	0.0709
281.0	0.0696
284.0	0.0685
287.0	0.0680
290.0	0.0662
293.0	0.0635
296.0	0.0642
299.0	0.0638
302.0	0.0628
305.0	0.0628
308.0	0.0634
311.0	0.0635
314.0	0.0644
317.0	0.0649
320.0	0.0651
323.0	0.0660
326.0	0.0669
329.0	0.0677
332.0	0.0683
335.0	0.0683
338.0	0.0689
341.0	0.0692
344.0	0.0692
347.0	0.0687
350.0	0.0684
353.0	0.0678
356.0	0.0671
359.0	0.0665
362.0	0.0650
365.0	0.0644
368.0	0.0635
371.0	0.0624
374.0	0.0611
377.0	0.0606
380.0	0.0595
383.0	0.0585
386.0	0.0575
389.0	0.0563
392.0	0.0551
395.0	0.0539
398.0	0.0529
401.0	0.0516
404.0	0.0507
407.0	0.0496
410.0	0.0487
413.0	0.0476
416.0	0.0466
419.0	0.0459
422.0	0.0452
425.0	0.0447
428.0	0.0443
431.0	0.0439
434.0	0.0436
437.0	0.0432
440.0	0.0429
443.0	0.0427
446.0	0.0426
449.0	0.0422
452.0	0.0420
455.0	0.0418
458.0	0.0414
461.0	0.0415
464.0	0.0412
467.0	0.0409
470.0	0.0407
473.0	0.0408
476.0	0.0405
479.0	0.0402
482.0	0.0402
485.0	0.0400
488.0	0.0399
491.0	0.0398
494.0	0.0397
497.0	0.0396
500.0	0.0393
503.0	0.0393
506.0	0.0394
509.0	0.0391
512.0	0.0389
515.0	0.0388
518.0	0.0387
521.0	0.0385
524.0	0.0385
527.0	0.0385
530.0	0.0387
533.0	0.0385
536.0	0.0383
539.0	0.0384
542.0	0.0383
545.0	0.0382
548.0	0.0380
551.0	0.0380
554.0	0.0381
557.0	0.0380
560.0	0.0379
563.0	0.0378
566.0	0.0379
569.0	0.0378
572.0	0.0378
575.0	0.0379
578.0	0.0378
581.0	0.0379
584.0	0.0381
587.0	0.0381
590.0	0.0380
593.0	0.0380
596.0	0.0380
599.0	0.0381
602.0	0.0384
605.0	0.0384
608.0	0.0382
611.0	0.0383
614.0	0.0384
617.0	0.0383
620.0	0.0382
623.0	0.0382
626.0	0.0382
629.0	0.0385
632.0	0.0382
635.0	0.0384
638.0	0.0385
641.0	0.0384
644.0	0.0382
647.0	0.0385
650.0	0.0384
653.0	0.0385
656.0	0.0387
659.0	0.0392
662.0	0.0391
665.0	0.0390
668.0	0.0385
671.0	0.0387
674.0	0.0385
677.0	0.0384
680.0	0.0388
683.0	0.0387
686.0	0.0386
689.0	0.0388
692.0	0.0389
695.0	0.0390
698.0	0.0392
701.0	0.0393
704.0	0.0399
707.0	0.0402
710.0	0.0402
713.0	0.0406
716.0	0.0413
719.0	0.0413
722.0	0.0424
725.0	0.0431
728.0	0.0439
731.0	0.0453
734.0	0.0466
737.0	0.0478
740.0	0.0482
743.0	0.0484
746.0	0.0482
749.0	0.0484
752.0	0.0485
755.0	0.0485
758.0	0.0487
761.0	0.0486
764.0	0.0485
767.0	0.0484
770.0	0.0484
773.0	0.0482
776.0	0.0485
779.0	0.0480
782.0	0.0481
785.0	0.0476
788.0	0.0474
791.0	0.0471
794.0	0.0465
797.0	0.0466
800.0	0.0465

File: 2_3k_water_10_cd.txt
'2_3k_water_10_cd.spc - RawData'
'Wavelength nm.'	'Abs.'
200.0	0.6893
203.0	0.6093
206.0	0.5221
209.0	0.4473
212.0	0.3881
215.0	0.3405
218.0	0.3025
221.0	0.2745
224.0	0.2535
227.0	0.2383
230.0	0.2266
233.0	0.2186
236.0	0.2114
239.0	0.2054
242.0	0.1990
245.0	0.1918
248.0	0.1833
251.0	0.1742
254.0	0.1624
257.0	0.1495
260.0	0.1373
263.0	0.1267
266.0	0.1184
269.0	0.1119
272.0	0.1074
275.0	0.1036
278.0	0.1007
281.0	0.0981
284.0	0.0963
287.0	0.0951
290.0	0.0944
293.0	0.0935
296.0	0.0937
299.0	0.0936
302.0	0.0931
305.0	0.0941
308.0	0.0948
311.0	0.0964
314.0	0.0982
317.0	0.1003
320.0	0.1020
323.0	0.1044
326.0	0.1066
329.0	0.1089
332.0	0.1107
335.0	0.1121
338.0	0.1133
341.0	0.1142
344.0	0.1144
347.0	0.1141
350.0	0.1134
353.0	0.1123
356.0	0.1107
359.0	0.1091
362.0	0.1069
365.0	0.1053
368.0	0.1032
371.0	0.1008
374.0	0.0982
377.0	0.0962
380.0	0.0936
383.0	0.0912
386.0	0.0887
389.0	0.0858
392.0	0.0829
395.0	0.0797
398.0	0.0769
401.0	0.0738
404.0	0.0710
407.0	0.0683
410.0	0.0656
413.0	0.0633
416.0	0.0611
419.0	0.0595
422.0	0.0581
425.0	0.0566
428.0	0.0555
431.0	0.0546
434.0	0.0538
437.0	0.0530
440.0	0.0522
443.0	0.0515
446.0	0.0510
449.0	0.0503
452.0	0.0497
455.0	0.0491
458.0	0.0485
461.0	0.0480
464.0	0.0475
467.0	0.0468
470.0	0.0463
473.0	0.0459
476.0	0.0456
479.0	0.0448
482.0	0.0445
485.0	0.0441
488.0	0.0438
491.0	0.0436
494.0	0.0432
497.0	0.0430
500.0	0.0427
503.0	0.0423
506.0	0.0422
509.0	0.0418
512.0	0.0416
515.0	0.0413
518.0	0.0411
521.0	0.0409
524.0	0.0406
527.0	0.0406
530.0	0.0406
533.0	0.0402
536.0	0.0400
539.0	0.0399
542.0	0.0400
545.0	0.0396
548.0	0.0394
551.0	0.0395
554.0	0.0393
557.0	0.0392
560.0	0.0390
563.0	0.0389
566.0	0.0391
569.0	0.0387
572.0	0.0389
575.0	0.0388
578.0	0.0387
581.0	0.0388
584.0	0.0390
587.0	0.0388
590.0	0.0387
593.0	0.0387
596.0	0.0386
599.0	0.0387
602.0	0.0390
605.0	0.0389
608.0	0.0386
611.0	0.0388
614.0	0.0390
617.0	0.0388
620.0	0.0386
623.0	0.0388
626.0	0.0387
629.0	0.0387
632.0	0.0386
635.0	0.0389
638.0	0.0389
641.0	0.0388
644.0	0.0386
647.0	0.0389
650.0	0.0386
653.0	0.0387
656.0	0.0391
659.0	0.0395
662.0	0.0395
665.0	0.0392
668.0	0.0389
671.0	0.0388
674.0	0.0387
677.0	0.0388
680.0	0.0388
683.0	0.0389
686.0	0.0387
689.0	0.0391
692.0	0.0392
695.0	0.0391
698.0	0.0393
701.0	0.0396
704.0	0.0402
707.0	0.0405
710.0	0.0402
713.0	0.0410
716.0	0.0416
719.0	0.0417
722.0	0.0426
725.0	0.0432
728.0	0.0439
731.0	0.0454
734.0	0.0467
737.0	0.0477
740.0	0.0480
743.0	0.0484
746.0	0.0482
749.0	0.0485
752.0	0.0485
755.0	0.0486
758.0	0.0488
761.0	0.0487
764.0	0.0484
767.0	0.0484
770.0	0.0487
773.0	0.0484
776.0	0.0487
779.0	0.0482
782.0	0.0483
785.0	0.0475
788.0	0.0473
791.0	0.0470
794.0	0.0464
797.0	0.0466
800.0	0.0462

File: acetone_AS15.2.txt
'aceton_AS15.2.spc - RawData'
'Wavelength nm.'	'Abs.'
310.0	6.0000
313.0	6.0000
316.0	5.4770
319.0	5.4416
322.0	4.5367
325.0	3.2249
328.0	2.4757
331.0	2.0155
334.0	1.7283
337.0	1.5299
340.0	1.3868
343.0	1.2697
346.0	1.1674
349.0	1.0744
352.0	0.9873
355.0	0.9038
358.0	0.8259
361.0	0.7512
364.0	0.6850
367.0	0.6263
370.0	0.5748
373.0	0.5318
376.0	0.4945
379.0	0.4651
382.0	0.4450
385.0	0.4320
388.0	0.4258
391.0	0.4250
394.0	0.4274
397.0	0.4320
400.0	0.4390
403.0	0.4479
406.0	0.4602
409.0	0.4750
412.0	0.4895
415.0	0.5038
418.0	0.5174
421.0	0.5291
424.0	0.5406
427.0	0.5535
430.0	0.5669
433.0	0.5783
436.0	0.5867
439.0	0.5914
442.0	0.5921
445.0	0.5879
448.0	0.5782
451.0	0.5653
454.0	0.5486
457.0	0.5257
460.0	0.4944
463.0	0.4584
466.0	0.4237
469.0	0.4001
472.0	0.3900
475.0	0.3915
478.0	0.4005
481.0	0.4114
484.0	0.4170
487.0	0.4103
490.0	0.3842
493.0	0.3388
496.0	0.2840
499.0	0.2300
502.0	0.1855
505.0	0.1512
508.0	0.1253
511.0	0.1069
514.0	0.0930
517.0	0.0819
520.0	0.0733
523.0	0.0662
526.0	0.0608
529.0	0.0566
532.0	0.0524
535.0	0.0495
538.0	0.0473
541.0	0.0453
544.0	0.0437
547.0	0.0423
550.0	0.0414
553.0	0.0404
556.0	0.0394
559.0	0.0386
562.0	0.0378
565.0	0.0373
568.0	0.0364
571.0	0.0362
574.0	0.0361
577.0	0.0362
580.0	0.0363
583.0	0.0365
586.0	0.0361
589.0	0.0355
592.0	0.0348
595.0	0.0344
598.0	0.0342
601.0	0.0339
604.0	0.0337
607.0	0.0336
610.0	0.0335
613.0	0.0335
616.0	0.0335
619.0	0.0335
622.0	0.0335
625.0	0.0335
628.0	0.0333
631.0	0.0332
634.0	0.0329
637.0	0.0327
640.0	0.0326
643.0	0.0325
646.0	0.0323
649.0	0.0323
652.0	0.0323
655.0	0.0324
658.0	0.0325
661.0	0.0326
664.0	0.0323
667.0	0.0321
670.0	0.0322
673.0	0.0318
676.0	0.0319
679.0	0.0318
682.0	0.0320
685.0	0.0317
688.0	0.0318
691.0	0.0319
694.0	0.0317
697.0	0.0317
700.0	0.0316
703.0	0.0316
706.0	0.0317
709.0	0.0317
712.0	0.0317
715.0	0.0317
718.0	0.0320
721.0	0.0324
724.0	0.0329
727.0	0.0337
730.0	0.0336
733.0	0.0334
736.0	0.0333
739.0	0.0332
742.0	0.0333
745.0	0.0333
748.0	0.0325
751.0	0.0320
754.0	0.0317
757.0	0.0314
760.0	0.0314
763.0	0.0314
766.0	0.0314
769.0	0.0313
772.0	0.0309
775.0	0.0308
778.0	0.0311
781.0	0.0316
784.0	0.0324
787.0	0.0330
790.0	0.0332
793.0	0.0333
796.0	0.0334
799.0	0.0331
802.0	0.0392
805.0	0.0392
808.0	0.0392
811.0	0.0391
814.0	0.0391
817.0	0.0388
820.0	0.0385
823.0	0.0383
826.0	0.0380
829.0	0.0377
832.0	0.0325
835.0	0.0325
838.0	0.0324
841.0	0.0325
844.0	0.0326
847.0	0.0327
850.0	0.0327
853.0	0.0326
856.0	0.0327
859.0	0.0334
862.0	0.0342
865.0	0.0350
868.0	0.0357
871.0	0.0362
874.0	0.0368
877.0	0.0380
880.0	0.0400
883.0	0.0426
886.0	0.0462
889.0	0.0516
892.0	0.0567
895.0	0.0571
898.0	0.0547
901.0	0.0540
904.0	0.0551
907.0	0.0558
910.0	0.0545
913.0	0.0505
916.0	0.0446
919.0	0.0391
922.0	0.0358
925.0	0.0339
928.0	0.0331
931.0	0.0326
934.0	0.0321
937.0	0.0318
940.0	0.0315
943.0	0.0315
946.0	0.0315
949.0	0.0317
952.0	0.0317
955.0	0.0319
958.0	0.0321
961.0	0.0323
964.0	0.0327
967.0	0.0331
970.0	0.0337
973.0	0.0345
976.0	0.0352
979.0	0.0360
982.0	0.0375
985.0	0.0391
988.0	0.0406
991.0	0.0419
994.0	0.0437
997.0	0.0455
1000.0	0.0467

File: chcl3_AS15.2.txt
'chcl3_AS15.2.spc - RawData'
'Wavelength nm.'	'Abs.'
310.0	0.7323
312.0	0.5840
314.0	0.4511
316.0	0.3432
318.0	0.2625
320.0	0.2058
322.0	0.1700
324.0	0.1478
326.0	0.1339
328.0	0.1249
330.0	0.1189
332.0	0.1148
334.0	0.1118
336.0	0.1094
338.0	0.1073
340.0	0.1057
342.0	0.1046
344.0	0.1040
346.0	0.1036
348.0	0.1035
350.0	0.1042
352.0	0.1047
354.0	0.1055
356.0	0.1065
358.0	0.1078
360.0	0.1093
362.0	0.1114
364.0	0.1139
366.0	0.1162
368.0	0.1191
370.0	0.1225
372.0	0.1258
374.0	0.1293
376.0	0.1331
378.0	0.1374
380.0	0.1427
382.0	0.1485
384.0	0.1546
386.0	0.1611
388.0	0.1679
390.0	0.1746
392.0	0.1811
394.0	0.1872
396.0	0.1937
398.0	0.2007
400.0	0.2090
402.0	0.2182
404.0	0.2286
406.0	0.2401
408.0	0.2522
410.0	0.2626
412.0	0.2707
414.0	0.2768
416.0	0.2805
418.0	0.2826
420.0	0.2842
422.0	0.2867
424.0	0.2915
426.0	0.2990
428.0	0.3085
430.0	0.3190
432.0	0.3286
434.0	0.3354
436.0	0.3383
438.0	0.3345
440.0	0.3240
442.0	0.3072
444.0	0.2866
446.0	0.2646
448.0	0.2439
450.0	0.2263
452.0	0.2129
454.0	0.2032
456.0	0.1965
458.0	0.1918
460.0	0.1876
462.0	0.1831
464.0	0.1778
466.0	0.1715
468.0	0.1653
470.0	0.1597
472.0	0.1552
474.0	0.1521
476.0	0.1510
478.0	0.1510
480.0	0.1524
482.0	0.1542
484.0	0.1563
486.0	0.1581
488.0	0.1587
490.0	0.1574
492.0	0.1536
494.0	0.1472
496.0	0.1386
498.0	0.1282
500.0	0.1169
502.0	0.1058
504.0	0.0953
506.0	0.0856
508.0	0.0771
510.0	0.0701
512.0	0.0644
514.0	0.0598
516.0	0.0558
518.0	0.0529
520.0	0.0506
522.0	0.0486
524.0	0.0473
526.0	0.0465
528.0	0.0458
530.0	0.0448
532.0	0.0440
534.0	0.0436
536.0	0.0433
538.0	0.0430
540.0	0.0428
542.0	0.0425
544.0	0.0423
546.0	0.0421
548.0	0.0421
550.0	0.0419
552.0	0.0418
554.0	0.0417
556.0	0.0415
558.0	0.0412
560.0	0.0412
562.0	0.0410
564.0	0.0411
566.0	0.0407
568.0	0.0406
570.0	0.0405
572.0	0.0405
574.0	0.0404
576.0	0.0403
578.0	0.0404
580.0	0.0404
582.0	0.0405
584.0	0.0404
586.0	0.0404
588.0	0.0403
590.0	0.0399
592.0	0.0397
594.0	0.0398
596.0	0.0397
598.0	0.0395
600.0	0.0393
602.0	0.0392
604.0	0.0391
606.0	0.0392
608.0	0.0391
610.0	0.0388
612.0	0.0389
614.0	0.0387
616.0	0.0386
618.0	0.0387
620.0	0.0387
622.0	0.0386
624.0	0.0386
626.0	0.0385
628.0	0.0384
630.0	0.0384
632.0	0.0384
634.0	0.0384
636.0	0.0384
638.0	0.0383
640.0	0.0383
642.0	0.0383
644.0	0.0383
646.0	0.0382
648.0	0.0383
650.0	0.0383
652.0	0.0384
654.0	0.0383
656.0	0.0384
658.0	0.0386
660.0	0.0389
662.0	0.0388
664.0	0.0386
666.0	0.0384
668.0	0.0383
670.0	0.0383
672.0	0.0381
674.0	0.0379
676.0	0.0377
678.0	0.0379
680.0	0.0383
682.0	0.0384
684.0	0.0383
686.0	0.0382
688.0	0.0381
690.0	0.0381
692.0	0.0381
694.0	0.0379
696.0	0.0380
698.0	0.0380
700.0	0.0381
702.0	0.0380
704.0	0.0378
706.0	0.0381
708.0	0.0383
710.0	0.0380
712.0	0.0382
714.0	0.0384
716.0	0.0386
718.0	0.0387
720.0	0.0391
722.0	0.0390
724.0	0.0388
726.0	0.0386
728.0	0.0384
730.0	0.0382
732.0	0.0383
734.0	0.0386
736.0	0.0385
738.0	0.0383
740.0	0.0385
742.0	0.0384
744.0	0.0384
746.0	0.0385
748.0	0.0384
750.0	0.0384
752.0	0.0385
754.0	0.0386
756.0	0.0386
758.0	0.0385
760.0	0.0386
762.0	0.0387
764.0	0.0387
766.0	0.0385
768.0	0.0387
770.0	0.0386
772.0	0.0386
774.0	0.0387
776.0	0.0388
778.0	0.0390
780.0	0.0392
782.0	0.0394
784.0	0.0394
786.0	0.0395
788.0	0.0396
790.0	0.0393
792.0	0.0393
794.0	0.0396
796.0	0.0400
798.0	0.0405
800.0	0.0409

File: etoh_AS15.2.txt
'etoh_AS15.2.spc - RawData'
'Wavelength nm.'	'Abs.'
310.0	0.6850
312.0	0.5456
314.0	0.4298
316.0	0.3385
318.0	0.2708
320.0	0.2212
322.0	0.1863
324.0	0.1606
326.0	0.1424
328.0	0.1290
330.0	0.1191
332.0	0.1114
334.0	0.1051
336.0	0.1002
338.0	0.0961
340.0	0.0927
342.0	0.0901
344.0	0.0880
346.0	0.0867
348.0	0.0859
350.0	0.0864
352.0	0.0867
354.0	0.0876
356.0	0.0890
358.0	0.0909
360.0	0.0933
362.0	0.0961
364.0	0.0993
366.0	0.1029
368.0	0.1071
370.0	0.1120
372.0	0.1175
374.0	0.1236
376.0	0.1302
378.0	0.1377
380.0	0.1465
382.0	0.1556
384.0	0.1652
386.0	0.1753
388.0	0.1863
390.0	0.1977
392.0	0.2098
394.0	0.2225
396.0	0.2363
398.0	0.2508
400.0	0.2664
402.0	0.2825
404.0	0.2992
406.0	0.3162
408.0	0.3331
410.0	0.3483
412.0	0.3616
414.0	0.3745
416.0	0.3876
418.0	0.4021
420.0	0.4176
422.0	0.4344
424.0	0.4527
426.0	0.4724
428.0	0.4916
430.0	0.5092
432.0	0.5232
434.0	0.5326
436.0	0.5373
438.0	0.5369
440.0	0.5340
442.0	0.5306
444.0	0.5292
446.0	0.5313
448.0	0.5364
450.0	0.5445
452.0	0.5531
454.0	0.5617
456.0	0.5680
458.0	0.5689
460.0	0.5610
462.0	0.5434
464.0	0.5153
466.0	0.4775
468.0	0.4347
470.0	0.3917
472.0	0.3515
474.0	0.3155
476.0	0.2867
478.0	0.2645
480.0	0.2490
482.0	0.2384
484.0	0.2311
486.0	0.2258
488.0	0.2210
490.0	0.2153
492.0	0.2073
494.0	0.1969
496.0	0.1837
498.0	0.1690
500.0	0.1536
502.0	0.1388
504.0	0.1250
506.0	0.1127
508.0	0.1024
510.0	0.0941
512.0	0.0873
514.0	0.0817
516.0	0.0765
518.0	0.0721
520.0	0.0682
522.0	0.0647
524.0	0.0618
526.0	0.0592
528.0	0.0567
530.0	0.0542
532.0	0.0520
534.0	0.0502
536.0	0.0485
538.0	0.0471
540.0	0.0458
542.0	0.0446
544.0	0.0436
546.0	0.0426
548.0	0.0419
550.0	0.0412
552.0	0.0405
554.0	0.0401
556.0	0.0394
558.0	0.0388
560.0	0.0384
562.0	0.0379
564.0	0.0376
566.0	0.0372
568.0	0.0367
570.0	0.0364
572.0	0.0364
574.0	0.0363
576.0	0.0363
578.0	0.0365
580.0	0.0365
582.0	0.0366
584.0	0.0365
586.0	0.0362
588.0	0.0359
590.0	0.0353
592.0	0.0350
594.0	0.0347
596.0	0.0344
598.0	0.0340
600.0	0.0337
602.0	0.0335
604.0	0.0333
606.0	0.0333
608.0	0.0332
610.0	0.0330
612.0	0.0329
614.0	0.0328
616.0	0.0328
618.0	0.0327
620.0	0.0326
622.0	0.0327
624.0	0.0327
626.0	0.0327
628.0	0.0328
630.0	0.0328
632.0	0.0327
634.0	0.0327
636.0	0.0326
638.0	0.0324
640.0	0.0324
642.0	0.0323
644.0	0.0322
646.0	0.0322
648.0	0.0323
650.0	0.0321
652.0	0.0320
654.0	0.0320
656.0	0.0320
658.0	0.0323
660.0	0.0326
662.0	0.0324
664.0	0.0320
666.0	0.0316
668.0	0.0317
670.0	0.0318
672.0	0.0315
674.0	0.0315
676.0	0.0316
678.0	0.0316
680.0	0.0320
682.0	0.0320
684.0	0.0318
686.0	0.0317
688.0	0.0319
690.0	0.0319
692.0	0.0319
694.0	0.0318
696.0	0.0318
698.0	0.0318
700.0	0.0319
702.0	0.0318
704.0	0.0319
706.0	0.0322
708.0	0.0323
710.0	0.0322
712.0	0.0323
714.0	0.0323
716.0	0.0323
718.0	0.0326
720.0	0.0328
722.0	0.0328
724.0	0.0330
726.0	0.0334
728.0	0.0336
730.0	0.0341
732.0	0.0345
734.0	0.0354
736.0	0.0361
738.0	0.0366
740.0	0.0374
742.0	0.0376
744.0	0.0374
746.0	0.0371
748.0	0.0367
750.0	0.0364
752.0	0.0362
754.0	0.0364
756.0	0.0365
758.0	0.0365
760.0	0.0366
762.0	0.0367
764.0	0.0368
766.0	0.0368
768.0	0.0367
770.0	0.0365
772.0	0.0364
774.0	0.0362
776.0	0.0362
778.0	0.0362
780.0	0.0365
782.0	0.0367
784.0	0.0371
786.0	0.0372
788.0	0.0375
790.0	0.0373
792.0	0.0371
794.0	0.0375
796.0	0.0378
798.0	0.0377
800.0	0.0380